{
  "resourceType" : "Bundle",
  "entry" : [
    {
      "id" : "@create-device",
      "content" : {
        "resourceType": "Device",
        "type": {
          "coding": [
            {
              "system": "http://snomed.info/sct",
              "code": "86184003",
              "display": "Electrocardiographic monitor and recorder"
            }
          ],
          "text": "ECG"
        }
      }
    },
    {
      "id" : "@update-note",
      "content" : {
        "resourceType": "Alert",
        "status": "active",
        "subject": {
          "reference": "@create-device",
          "display": "Peter Patient"
        },
        "note": "current-note",
        "author": {
          "reference": "@delete-device",
          "display": "Nancy Nurse"
        }
      }
    },
    {
      "id" : "@delete-device",
      "deleted" : "2012-05-29T23:45:32+00:00"
    }
  ]
}
